Folder: A2DfromUV/example

Note: README.md
# A2DfromUV
Analysis of UV/VIS spectra from semiconducting 2D dispersions to apply flake size metrics.

File: MoS2 Ext - Chem Mater.csv
01-04,,04-1k,,1-5k,,5-10k,,10-22k,,22-74k,
Wavelength (nm),Ext,Wavelength (nm),Ext,Wavelength (nm),Ext,Wavelength (nm),Ext,Wavelength (nm),Ext,Wavelength (nm),Ext
1000,0.0389,1000,0.00483,1000,0.00148,1000,0.0011,1000,0.0023,1000,0.00459
993.5,0.04027,993.5,0.00526,993.5,0.00164,993.5,0.00122,993.5,0.00245,993.5,0.00466
987,0.04179,987,0.00567,987,0.00182,987,0.00142,987,0.00261,987,0.00477
980.5,0.04312,980.5,0.00589,980.5,0.00191,980.5,0.00181,980.5,0.00299,980.5,0.0049
974,0.0446,974,0.00624,974,0.00218,974,0.00204,974,0.00324,974,0.00499
967.5,0.04592,967.5,0.00638,967.5,0.00226,967.5,0.00201,967.5,0.00335,967.5,0.00497
961,0.04727,961,0.00661,961,0.00227,961,0.00204,961,0.0033,961,0.00501
954.5,0.04864,954.5,0.00667,954.5,0.00218,954.5,0.00169,954.5,0.00289,954.5,0.00495
948,0.05013,948,0.00677,948,0.00219,948,0.00163,948,0.00283,948,0.00497
941.5,0.05158,941.5,0.00685,941.5,0.00199,941.5,0.00162,941.5,0.0028,941.5,0.00502
935,0.05321,935,0.00697,935,0.002,935,0.00165,935,0.0028,935,0.00507
928.5,0.05498,928.5,0.0072,928.5,0.00206,928.5,0.00181,928.5,0.00302,928.5,0.00519
922,0.05668,922,0.00739,922,0.00211,922,0.00188,922,0.00314,922,0.00526
915.5,0.05849,915.5,0.00752,915.5,0.00202,915.5,0.00182,915.5,0.00307,915.5,0.00526
909,0.06042,909,0.00776,909,0.0021,909,0.00173,909,0.00301,909,0.00535
902.5,0.06248,902.5,0.0081,902.5,0.00213,902.5,0.00165,902.5,0.003,902.5,0.00536
896,0.0646,896,0.00835,896,0.00212,896,0.00159,896,0.00292,896,0.00541
889.5,0.06692,889.5,0.00872,889.5,0.00226,889.5,0.00169,889.5,0.00298,889.5,0.00539
883,0.06924,883,0.00915,883,0.00248,883,0.00191,883,0.00317,883,0.00535
876.5,0.07181,876.5,0.00958,876.5,0.0027,876.5,0.00215,876.5,0.0034,876.5,0.00546
870,0.07417,870,0.00994,870,0.00274,870,0.00214,870,0.00351,870,0.00554
863.5,0.0768,863.5,0.01033,863.5,0.00281,863.5,0.00227,863.5,0.00366,863.5,0.00565
857,0.07954,857,0.01064,857,0.00287,857,0.0023,857,0.00373,857,0.00572
850.5,0.08249,850.5,0.01107,850.5,0.00295,850.5,0.0022,850.5,0.00369,850.5,0.00578
844,0.08545,844,0.01154,844,0.00297,844,0.00212,844,0.00359,844,0.00599
837.5,0.08862,837.5,0.0121,837.5,0.00312,837.5,0.00222,837.5,0.0036,837.5,0.00604
831,0.09186,831,0.01266,831,0.00339,831,0.00231,831,0.00375,831,0.00614
824.5,0.09533,824.5,0.01324,824.5,0.00361,824.5,0.00244,824.5,0.00393,824.5,0.00615
818,0.09886,818,0.01381,818,0.00378,818,0.00258,818,0.00412,818,0.00632
811.5,0.10256,811.5,0.01444,811.5,0.00397,811.5,0.00281,811.5,0.00427,811.5,0.00634
805,0.10648,805,0.01506,805,0.00395,805,0.00288,805,0.00437,805,0.00644
798.5,0.11029,798.5,0.01546,798.5,0.00348,798.5,0.00246,798.5,0.00402,798.5,0.00578
792,0.11478,792,0.01654,792,0.00397,792,0.00299,792,0.00441,792,0.00577
785.5,0.11926,785.5,0.01737,785.5,0.00405,785.5,0.00283,785.5,0.00438,785.5,0.00588
779,0.12404,779,0.01816,779,0.00428,779,0.00297,779,0.00449,779,0.006
772.5,0.12901,772.5,0.01921,772.5,0.00464,772.5,0.00304,772.5,0.00471,772.5,0.00621
766,0.13436,766,0.02042,766,0.00499,766,0.0033,766,0.00493,766,0.00629
759.5,0.13977,759.5,0.02159,759.5,0.00525,759.5,0.00339,759.5,0.00506,759.5,0.00654
753,0.14557,753,0.02291,753,0.00556,753,0.0037,753,0.00521,753,0.00667
746.5,0.15175,746.5,0.02436,746.5,0.00569,746.5,0.00382,746.5,0.0053,746.5,0.00679
740,0.15833,740,0.02606,740,0.00607,740,0.00407,740,0.00551,740,0.00694
733.5,0.16556,733.5,0.0278,733.5,0.00642,733.5,0.00421,733.5,0.00568,733.5,0.00726
727,0.17346,727,0.02981,727,0.0068,727,0.0043,727,0.00583,727,0.00754
720.5,0.18209,720.5,0.03247,720.5,0.00747,720.5,0.00459,720.5,0.00635,720.5,0.00777
714,0.19174,714,0.0357,714,0.00839,714,0.00514,714,0.00692,714,0.00819
707.5,0.2027,707.5,0.03986,707.5,0.00955,707.5,0.00584,707.5,0.00759,707.5,0.00884
701,0.21561,701,0.0457,701,0.01135,701,0.007,701,0.00861,701,0.00967
694.5,0.23052,694.5,0.0539,694.5,0.01403,694.5,0.00866,694.5,0.01002,694.5,0.01065
688,0.24786,688,0.06623,688,0.01855,688,0.01128,688,0.01223,688,0.0122
681.5,0.26408,681.5,0.08432,681.5,0.02592,681.5,0.01532,681.5,0.01545,681.5,0.0143
675,0.26974,675,0.10281,675,0.03569,675,0.02083,675,0.02006,675,0.01741
668.5,0.26053,668.5,0.1103,668.5,0.04337,668.5,0.02701,668.5,0.02582,668.5,0.02141
662,0.24839,662,0.10742,662,0.04582,662,0.03158,662,0.03129,662,0.0257
655.5,0.24199,655.5,0.10218,655.5,0.04424,655.5,0.03235,655.5,0.03411,655.5,0.02902
649,0.24293,649,0.10032,649,0.04298,649,0.03197,649,0.03489,649,0.031
642.5,0.24921,642.5,0.10281,642.5,0.04357,642.5,0.03223,642.5,0.03518,642.5,0.03118
636,0.25761,636,0.10855,636,0.046,636,0.0338,636,0.03643,636,0.03191
629.5,0.26641,629.5,0.11683,629.5,0.04996,629.5,0.03682,629.5,0.03915,629.5,0.03411
623,0.27394,623,0.1266,623,0.0553,623,0.04097,623,0.04341,623,0.03748
616.5,0.27793,616.5,0.13606,616.5,0.0612,616.5,0.04568,616.5,0.04849,616.5,0.0419
610,0.27562,610,0.14137,610,0.06578,610,0.04956,610,0.05288,610,0.04591
603.5,0.26816,603.5,0.13983,603.5,0.06668,603.5,0.05068,603.5,0.05458,603.5,0.04825
597,0.26127,597,0.13484,597,0.06456,597,0.04942,597,0.05374,597,0.0481
590.5,0.25974,590.5,0.13122,590.5,0.0621,590.5,0.04764,590.5,0.05182,590.5,0.04681
584,0.26268,584,0.13064,584,0.06067,584,0.04613,584,0.05017,584,0.04553
577.5,0.26765,577.5,0.13253,577.5,0.06041,577.5,0.0455,577.5,0.04938,577.5,0.04502
571,0.27341,571,0.13607,571,0.0609,571,0.04529,571,0.04908,571,0.04485
564.5,0.27942,564.5,0.14029,564.5,0.06178,564.5,0.04522,564.5,0.04914,564.5,0.04491
558,0.28617,558,0.14594,558,0.06353,558,0.04588,558,0.04969,558,0.04548
551.5,0.29324,551.5,0.15266,551.5,0.06586,551.5,0.04704,551.5,0.05077,551.5,0.04641
545,0.30068,545,0.16019,545,0.06884,545,0.04859,545,0.05228,545,0.04756
538.5,0.30855,538.5,0.16891,538.5,0.07237,538.5,0.05035,538.5,0.05411,538.5,0.04897
532,0.31697,532,0.1788,532,0.0766,532,0.05255,532,0.05639,532,0.05078
525.5,0.3259,525.5,0.18998,525.5,0.0818,525.5,0.05521,525.5,0.05907,525.5,0.05299
519,0.33506,519,0.20278,519,0.08811,519,0.05862,519,0.06225,519,0.05573
512.5,0.34466,512.5,0.21751,512.5,0.0961,512.5,0.06295,512.5,0.06623,512.5,0.05892
506,0.35421,506,0.23399,506,0.1059,506,0.06847,506,0.07127,506,0.063
499.5,0.36316,499.5,0.25224,499.5,0.11793,499.5,0.07555,499.5,0.07749,499.5,0.06794
493,0.37097,493,0.27114,493,0.13247,493,0.08451,493,0.0854,493,0.07388
486.5,0.37651,486.5,0.2892,486.5,0.14878,486.5,0.09551,486.5,0.09538,486.5,0.08129
480,0.37997,480,0.30488,480,0.16571,480,0.10833,480,0.10738,480,0.09019
473.5,0.38216,473.5,0.31861,473.5,0.18313,473.5,0.12317,473.5,0.12147,473.5,0.10077
467,0.38304,467,0.33052,467,0.20069,467,0.13982,467,0.13786,467,0.11339
460.5,0.38186,460.5,0.33942,460.5,0.2176,460.5,0.15805,460.5,0.15629,460.5,0.1281
454,0.37806,454,0.34408,454,0.2321,454,0.17693,454,0.17656,454,0.14476
447.5,0.37206,447.5,0.34392,447.5,0.2422,447.5,0.19477,447.5,0.19723,447.5,0.16281
441,0.36489,441,0.34036,441,0.24756,441,0.20879,441,0.21608,441,0.18095
434.5,0.35905,434.5,0.33642,434.5,0.2501,434.5,0.21899,434.5,0.23178,434.5,0.19805
428,0.35496,428,0.33389,428,0.25188,428,0.22612,428,0.2437,428,0.212
421.5,0.35216,421.5,0.33266,421.5,0.2543,421.5,0.23193,421.5,0.25245,421.5,0.22249
415,0.34998,415,0.33242,415,0.25762,415,0.23761,415,0.2595,415,0.23
408.5,0.34709,408.5,0.33183,408.5,0.26105,408.5,0.24374,408.5,0.26636,408.5,0.23607
402,0.34285,402,0.32943,402,0.26331,402,0.2497,402,0.27257,402,0.24141
395.5,0.33683,395.5,0.32414,395.5,0.26292,395.5,0.25342,395.5,0.277,395.5,0.24503
389,0.32804,389,0.31512,389,0.25831,389,0.25278,389,0.27686,389,0.24492
382.5,0.31728,382.5,0.30243,382.5,0.24908,382.5,0.24627,382.5,0.27058,382.5,0.23927
376,0.30537,376,0.28778,376,0.23624,376,0.23461,376,0.25788,376,0.22835
369.5,0.2942,369.5,0.27349,369.5,0.22282,369.5,0.22051,369.5,0.24217,369.5,0.21413
363,0.28413,363,0.26032,363,0.20993,363,0.20631,363,0.22599,363,0.19954
356.5,0.27716,356.5,0.25029,356.5,0.19943,356.5,0.19374,356.5,0.21162,356.5,0.18668
350,0.27388,350,0.24508,350,0.19293,350,0.18526,350,0.20154,350,0.17779
343.5,0.27623,343.5,0.24721,343.5,0.19329,343.5,0.18326,343.5,0.19835,343.5,0.17459
337,0.28001,337,0.25287,337,0.19932,337,0.18865,337,0.20245,337,0.17618
330.5,0.28281,330.5,0.2568,330.5,0.20426,330.5,0.19521,330.5,0.20947,330.5,0.18192
324,0.28421,324,0.26025,324,0.20889,324,0.20188,324,0.21776,324,0.1895
317.5,0.28601,317.5,0.26427,317.5,0.21462,317.5,0.21109,317.5,0.23018,317.5,0.20175
311,0.28809,311,0.26803,311,0.22098,311,0.22182,311,0.2463,311,0.21994
304.5,0.29093,304.5,0.27265,304.5,0.22764,304.5,0.23282,304.5,0.26242,304.5,0.2388
298,0.29396,298,0.27773,298,0.23417,298,0.24254,298,0.27522,298,0.25346
291.5,0.29715,291.5,0.28258,291.5,0.24063,291.5,0.25114,291.5,0.28517,291.5,0.26319
285,0.30095,285,0.28726,285,0.24755,285,0.25999,285,0.29405,285,0.26967
278.5,0.30334,278.5,0.29083,278.5,0.25366,278.5,0.26926,278.5,0.30358,278.5,0.27675
272,0.30284,272,0.29113,272,0.25657,272,0.27683,272,0.31266,272,0.28429
265.5,0.29903,265.5,0.28723,265.5,0.25544,265.5,0.28033,265.5,0.31899,265.5,0.29098
259,0.29417,259,0.28087,259,0.25158,259,0.28043,259,0.32179,259,0.2955
252.5,0.28759,252.5,0.27198,252.5,0.24393,252.5,0.27585,252.5,0.31962,252.5,0.29627
246,0.28039,246,0.26261,246,0.23456,246,0.26775,246,0.3128,246,0.29284
239.5,0.27605,239.5,0.25621,239.5,0.22795,239.5,0.26095,239.5,0.30735,239.5,0.2899
233,0.27357,233,0.25208,233,0.22384,233,0.25718,233,0.3048,233,0.28878
226.5,0.27081,226.5,0.24839,226.5,0.22041,226.5,0.25531,226.5,0.3048,226.5,0.28938
220,0.26803,220,0.24436,220,0.21681,220,0.25366,220,0.30684,220,0.29278
213.5,0.26721,213.5,0.24227,213.5,0.21465,213.5,0.25324,213.5,0.31048,213.5,0.29842
207,0.26547,207,0.23771,207,0.20938,207,0.24971,207,0.30976,207,0.30024
200.5,0.25873,200.5,0.22712,200.5,0.19736,200.5,0.2394,200.5,0.30281,200.5,0.29752
200,0.25808,200,0.22657,200,0.19684,200,0.23856,200,0.30274,200,0.29737

File: MoS2 Ext - JOVE HER.csv
1-1.5k,,2-3k,,3-5k,,5-15k,,0.5-0.75k,,0.75-1k,,1k-2k,,15kS,
Wavelength (nm),Ext,Wavelength (nm),Ext,Wavelength (nm),Ext,Wavelength (nm),Ext,Wavelength (nm),Ext,Wavelength (nm),Ext,Wavelength (nm),Ext,Wavelength (nm),Ext
1100,0.03932,1100,0.00791,1100,0.00708,1100,0.0104,1100,0.2911,1100,0.12161,1100,0.01364,1100,0.00696
1091,0.04104,1091,0.00812,1091,0.00715,1091,0.01058,1091,0.30018,1091,0.12596,1091,0.01402,1091,0.00751
1082,0.04229,1082,0.00822,1082,0.00718,1082,0.01068,1082,0.30942,1082,0.13033,1082,0.01425,1082,0.00759
1073,0.04408,1073,0.0084,1073,0.0075,1073,0.01097,1073,0.31931,1073,0.13538,1073,0.01497,1073,0.00851
1064,0.04567,1064,0.00872,1064,0.00756,1064,0.01113,1064,0.32938,1064,0.14042,1064,0.01529,1064,0.00849
1055,0.04768,1055,0.00895,1055,0.00766,1055,0.0113,1055,0.33976,1055,0.14573,1055,0.01589,1055,0.0088
1046,0.04939,1046,0.00914,1046,0.00788,1046,0.01155,1046,0.35069,1046,0.15146,1046,0.01644,1046,0.00935
1037,0.05128,1037,0.00948,1037,0.00811,1037,0.01176,1037,0.3619,1037,0.15726,1037,0.01698,1037,0.00954
1028,0.05317,1028,0.00966,1028,0.00814,1028,0.01189,1028,0.37341,1028,0.16328,1028,0.01748,1028,0.00978
1019,0.05536,1019,0.00954,1019,0.00841,1019,0.01217,1019,0.38561,1019,0.17004,1019,0.01814,1019,0.01045
1010,0.05758,1010,0.01053,1010,0.00867,1010,0.01238,1010,0.39819,1010,0.17697,1010,0.01885,1010,0.01067
1001,0.06067,1001,0.01078,1001,0.00898,1001,0.01269,1001,0.41133,1001,0.18445,1001,0.01995,1001,0.01127
992,0.06355,992,0.01112,992,0.00938,992,0.01298,992,0.42512,992,0.19238,992,0.02058,992,0.01176
983,0.06673,983,0.01173,983,0.00979,983,0.01333,983,0.43939,983,0.20089,983,0.02171,983,0.01232
974,0.06992,974,0.0122,974,0.01018,974,0.01366,974,0.45413,974,0.20977,974,0.02286,974,0.013
965,0.07329,965,0.01269,965,0.01049,965,0.01396,965,0.46937,965,0.21905,965,0.02383,965,0.0134
956,0.07654,956,0.01303,956,0.01064,956,0.01424,956,0.48489,956,0.22856,956,0.02493,956,0.01379
947,0.07943,947,0.01341,947,0.01072,947,0.01441,947,0.5007,947,0.23833,947,0.02559,947,0.01401
938,0.08303,938,0.01371,938,0.01084,938,0.0147,938,0.51723,938,0.24892,938,0.02646,938,0.01456
929,0.08702,929,0.01422,929,0.01139,929,0.01506,929,0.53453,929,0.26037,929,0.02759,929,0.01508
920,0.09101,920,0.01486,920,0.01149,920,0.01537,920,0.55212,920,0.27217,920,0.02871,920,0.01555
911,0.09567,911,0.0153,911,0.01173,911,0.01575,911,0.57047,911,0.28479,911,0.02996,911,0.01616
902,0.10051,902,0.01589,902,0.01214,902,0.01619,902,0.58962,902,0.29838,902,0.03133,902,0.01676
893,0.10573,893,0.01684,893,0.01253,893,0.01663,893,0.6093,893,0.31279,893,0.03306,893,0.01754
884,0.11139,884,0.01735,884,0.01302,884,0.0171,884,0.62963,884,0.32811,884,0.03466,884,0.01834
875,0.11728,875,0.01803,875,0.01342,875,0.01759,875,0.65029,875,0.34425,875,0.03632,875,0.01905
866,0.12388,866,0.01891,866,0.01389,866,0.01811,866,0.67187,866,0.36154,866,0.03824,866,0.01993
857,0.13095,857,0.0198,857,0.01456,857,0.01869,857,0.69399,857,0.37991,857,0.04032,857,0.02082
848,0.13867,848,0.02073,848,0.01501,848,0.01928,848,0.71665,848,0.39942,848,0.04256,848,0.02193
839,0.14653,839,0.02161,839,0.01555,839,0.01973,839,0.7397,839,0.41974,839,0.04465,839,0.02242
830,0.1553,830,0.02264,830,0.01593,830,0.02027,830,0.76349,830,0.44153,830,0.04712,830,0.02319
821,0.16481,821,0.02368,821,0.01649,821,0.02079,821,0.78783,821,0.46479,821,0.04955,821,0.02393
812,0.17529,812,0.02491,812,0.01709,812,0.02138,812,0.81298,812,0.4899,812,0.05276,812,0.02478
803,0.18689,803,0.02615,803,0.01756,803,0.02187,803,0.83861,803,0.51646,803,0.05584,803,0.02497
794,0.19859,794,0.0274,794,0.01809,794,0.02226,794,0.86042,794,0.54324,794,0.05908,794,0.0256
785,0.21277,785,0.02899,785,0.01888,785,0.02295,785,0.88742,785,0.57345,785,0.06315,785,0.02604
776,0.2286,776,0.03086,776,0.0198,776,0.02365,776,0.91434,776,0.60669,776,0.0681,776,0.02726
767,0.24584,767,0.03273,767,0.02073,767,0.02438,767,0.94187,767,0.64169,767,0.07225,767,0.02779
758,0.26565,758,0.03498,758,0.02184,758,0.0252,758,0.96993,758,0.67935,758,0.07869,758,0.02844
749,0.28721,749,0.0376,749,0.02311,749,0.02626,749,0.99813,749,0.72076,749,0.08505,749,0.02873
740,0.31326,740,0.04076,740,0.0249,740,0.02775,740,1.0272,740,0.76545,740,0.09284,740,0.03018
731,0.34274,731,0.0445,731,0.0266,731,0.02937,731,1.05642,731,0.81425,731,0.10208,731,0.03095
722,0.37856,722,0.04964,722,0.02995,722,0.03192,722,1.08654,722,0.86936,722,0.11382,722,0.0331
713,0.4245,713,0.0566,713,0.03402,713,0.0356,713,1.11688,713,0.93142,713,0.12964,713,0.03565
704,0.48447,704,0.06798,704,0.04143,704,0.04183,704,1.14736,704,1.00342,704,0.15275,704,0.04013
695,0.56907,695,0.08746,695,0.05455,695,0.0525,695,1.17423,695,1.08492,695,0.19069,695,0.04702
686,0.69026,686,0.12631,686,0.08078,686,0.07268,686,1.18767,686,1.16407,686,0.26,686,0.05719
677,0.81787,677,0.20324,677,0.13387,677,0.11071,677,1.16525,677,1.18243,677,0.37948,677,0.07632
668,0.81635,668,0.27457,668,0.19534,668,0.16308,668,1.10586,668,1.10336,668,0.45125,668,0.10654
659,0.75162,659,0.2749,659,0.21051,659,0.19383,659,1.07159,659,1.0408,659,0.4257,659,0.14016
650,0.73027,650,0.25455,650,0.19563,650,0.18774,650,1.07693,650,1.03885,650,0.39963,650,0.15347
641,0.76058,641,0.25531,641,0.19452,641,0.18609,641,1.09958,641,1.07579,641,0.40791,641,0.15667
632,0.81793,632,0.27754,632,0.21054,632,0.20042,632,1.11698,632,1.11623,632,0.44586,632,0.16788
623,0.88094,623,0.31825,623,0.24203,623,0.22947,623,1.12221,623,1.14085,623,0.50479,623,0.1918
614,0.91849,614,0.36798,614,0.28287,614,0.26725,614,1.11022,614,1.13454,614,0.56418,614,0.2239
605,0.89918,605,0.39227,605,0.30645,605,0.29019,605,1.08229,605,1.09533,605,0.58088,605,0.24709
596,0.85844,596,0.37486,596,0.29528,596,0.28072,596,1.06404,596,1.06348,596,0.55076,596,0.24689
587,0.85166,587,0.35553,587,0.27812,587,0.26442,587,1.07308,587,1.07199,587,0.53184,587,0.23828
578,0.87844,578,0.35166,578,0.27001,578,0.25589,578,1.08936,578,1.09817,578,0.53992,578,0.23183
569,0.91683,569,0.35955,569,0.27118,569,0.25453,569,1.10375,569,1.12451,569,0.56251,569,0.23105
560,0.95985,560,0.37547,560,0.27802,560,0.25816,560,1.1177,560,1.15063,560,0.59538,560,0.23348
551,1.00783,551,0.39723,551,0.28935,551,0.26574,551,1.13121,551,1.17514,551,0.6361,551,0.23838
542,1.06199,542,0.42627,542,0.30639,542,0.27791,542,1.14567,542,1.20001,542,0.68702,542,0.24762
533,1.11956,533,0.46377,533,0.32884,533,0.29449,533,1.16024,533,1.22341,533,0.74837,533,0.25977
524,1.18059,524,0.51234,524,0.35873,524,0.31684,524,1.1759,524,1.246,524,0.82326,524,0.27598
515,1.24326,515,0.5759,515,0.39995,515,0.34714,515,1.19247,515,1.2668,515,0.9132,515,0.29717
506,1.30284,506,0.6594,506,0.4564,506,0.38864,506,1.20926,506,1.28566,506,1.0185,506,0.3243
497,1.35346,497,0.7664,497,0.53366,497,0.44619,497,1.22403,497,1.30147,497,1.13327,497,0.36086
488,1.38582,488,0.89157,488,0.63601,488,0.52469,488,1.2331,488,1.311,488,1.23911,488,0.40923
479,1.40034,479,1.01491,479,0.75521,479,0.6245,479,1.235,479,1.31371,479,1.31767,479,0.4735
470,1.40633,470,1.12911,470,0.88393,470,0.74441,470,1.23347,470,1.31317,470,1.37431,470,0.55761
461,1.40098,461,1.22805,461,1.01475,461,0.88009,461,1.22545,461,1.30556,461,1.40798,461,0.66348
452,1.37873,452,1.29203,452,1.12947,452,1.0188,452,1.20924,452,1.28638,452,1.40953,452,0.79127
443,1.34363,443,1.31017,443,1.19877,443,1.13156,443,1.18815,443,1.25885,443,1.38208,443,0.93469
434,1.31123,434,1.30334,434,1.22726,434,1.19914,434,1.1706,434,1.23477,434,1.35053,434,1.07053
425,1.29256,425,1.30408,425,1.24725,425,1.24033,425,1.16039,425,1.22036,425,1.33435,425,1.1796
416,1.28114,416,1.31645,416,1.27752,416,1.27623,416,1.15317,416,1.21108,416,1.32871,416,1.25555
407,1.26682,407,1.33095,407,1.31392,407,1.31943,407,1.14361,407,1.19894,407,1.32151,407,1.31566
398,1.2427,398,1.33092,398,1.33903,398,1.35716,398,1.12891,398,1.17935,398,1.30048,398,1.36677
389,1.20169,389,1.29893,389,1.32907,389,1.36107,389,1.10579,389,1.14813,389,1.25574,389,1.38968
380,1.1449,380,1.23016,380,1.26853,380,1.3079,380,1.07454,380,1.10538,380,1.18748,380,1.35242
371,1.08515,371,1.14651,371,1.18001,371,1.21386,371,1.04233,371,1.06108,371,1.11325,371,1.25699
362,1.03224,362,1.06698,362,1.08875,362,1.11303,362,1.01411,362,1.02155,362,1.0466,362,1.14159
353,1.00004,353,1.0107,353,1.01953,353,1.02924,353,0.99742,353,0.9985,353,1.00349,353,1.04456
344,1.00217,344,1.00223,344,1.00168,344,0.99988,344,1.00202,344,1.00214,344,1.00248,344,0.99722
335,1.0205,335,1.03487,335,1.03883,335,1.03744,335,1.01202,335,1.01545,335,1.02795,335,1.01629
326,1.03209,326,1.06235,326,1.077,326,1.08874,326,1.01886,326,1.02388,326,1.04587,326,1.07143
317,1.0386,317,1.08841,317,1.11726,317,1.14923,317,1.02207,317,1.02956,317,1.06016,317,1.16883
308,1.04974,308,1.11749,308,1.16367,308,1.22168,308,1.0301,308,1.03778,308,1.07585,308,1.3256
299,1.0638,299,1.1515,299,1.21349,299,1.28829,299,1.04112,299,1.05147,299,1.0972,299,1.46998
290,1.07915,290,1.18647,290,1.26403,290,1.34701,290,1.05183,290,1.06588,290,1.11722,290,1.56551
281,1.09591,281,1.22392,281,1.32172,281,1.4149,281,1.06216,281,1.0803,281,1.13938,281,1.63977
272,1.09701,272,1.24136,272,1.36201,272,1.47566,272,1.05978,272,1.08145,272,1.14277,272,1.72513
263,1.07763,263,1.22385,263,1.36123,263,1.49854,263,1.04737,263,1.06739,263,1.12046,263,1.81925
254,1.04979,254,1.18303,254,1.32707,254,1.48252,254,1.03132,254,1.0475,254,1.08298,254,1.92893
245,1.01587,245,1.12715,245,1.2666,245,1.42838,245,1.01303,245,1.0245,245,1.03726,245,2.11311
236,0.99785,236,1.09317,236,1.22829,236,1.38781,236,1.0037,236,1.01355,236,1.01058,236,2.42286
227,0.98435,227,1.07289,227,1.20572,227,1.37249,227,0.99449,227,1.00463,227,0.99302,227,2.62273
218,0.97007,218,1.05223,218,1.18173,218,1.36235,218,0.98624,218,0.99526,218,0.97495,218,2.9757
209,0.97405,209,1.04959,209,1.16946,209,1.36845,209,0.98835,209,1.00277,209,0.97283,209,3.82029
200,0.96121,200,0.99994,200,1.04616,200,1.30031,200,0.98119,200,0.99687,200,0.94305,200,3.85978