Folder: A2DfromUV/example (part 2)

File: MoS2 Ext - JOVE.csv
MoS2 F1,,MoS2 F2,,MoS2 F3,,MoS2 F4,,MoS2 F5,,MoS2 F6,,MoS2 F7,
Wavelength (nm),Ext,Wavelength (nm),Ext,Wavelength (nm),Ext,Wavelength (nm),Ext,Wavelength (nm),Ext,Wavelength (nm),Ext,Wavelength (nm),Ext
800,1.65176,800,2.8116,800,3.31032,800,4.68158,800,8.00866,800,10.27176,800,10.62323
795,1.78138,795,2.67834,795,3.55471,795,4.66994,795,8.15659,795,10.41688,795,10.88566
790,1.79564,790,2.97695,790,3.55798,790,4.90366,790,8.39358,790,10.85329,790,11.15713
785,1.60654,785,2.75476,785,3.62898,785,4.85128,785,8.67336,785,11.2664,785,11.62357
780,1.45316,780,2.62552,780,3.41737,780,4.70308,780,8.75294,780,11.59542,780,12.21269
775,1.67279,775,2.9735,775,3.99239,775,5.28454,775,9.27919,775,12.21381,775,12.77116
770,1.5953,770,2.94731,770,3.80766,770,5.26992,770,9.61286,770,12.6063,770,13.28326
765,1.74062,765,2.95235,765,4.00498,765,5.65184,765,10.05242,765,13.10084,765,13.79165
760,1.87802,760,2.97177,760,4.1445,760,5.89049,760,10.46441,760,13.70769,760,14.42962
755,1.62958,755,3.06848,755,4.20665,755,5.88496,755,10.76415,755,14.22585,755,15.16156
750,1.72348,750,3.08071,750,4.39946,750,6.24868,750,11.33431,750,15.04791,750,15.92292
745,1.95953,745,3.20218,745,4.52873,745,6.59657,745,12.0181,745,15.66053,745,16.81025
740,1.94657,740,3.26291,740,4.86806,740,6.97372,740,12.54098,740,16.51486,740,17.73871
735,2.07215,735,3.33055,735,4.93953,735,7.25087,735,13.22689,735,17.44827,735,18.71971
730,1.91661,730,3.21139,730,5.1774,730,7.59698,730,13.92515,730,18.35988,730,19.84201
725,2.04191,725,3.45575,725,5.42475,725,8.02114,725,14.73667,725,19.57817,725,21.19022
720,2.27969,720,3.67291,720,5.86678,720,8.60634,720,15.77433,720,20.87137,720,22.63962
715,2.25765,715,3.69421,715,6.20595,715,9.16318,715,16.81897,715,22.20892,715,24.20779
710,2.56917,710,4.08435,710,6.7485,710,10.00717,710,18.22472,710,24.07595,710,26.20157
705,2.7093,705,4.36426,705,7.33254,705,11.01742,705,19.83279,705,26.14387,705,28.4294
700,3.13703,700,4.74505,700,8.06262,700,12.11723,700,21.78525,700,28.54145,700,31.0594
695,3.51321,695,5.30544,695,9.24079,695,13.73895,695,24.41102,695,31.61866,695,34.44232
690,4.30201,690,6.21425,690,10.91009,690,16.1869,690,27.94273,690,35.597,690,38.70578
685,5.20026,685,7.50801,685,13.44946,685,19.68167,685,32.61251,685,40.44025,685,43.53369
680,6.66119,680,9.42606,680,17.04954,680,24.33266,680,38.32432,680,45.04542,680,47.72784
675,8.49888,675,11.83227,675,21.28104,675,29.2899,675,42.61841,675,47.18387,675,48.92469
670,10.55649,670,14.2435,670,24.38021,670,32.13038,670,43.39949,670,46.09712,670,47.04556
665,12.17254,665,15.66362,665,25.17042,665,32.12843,665,41.64286,665,43.55966,665,44.32137
660,12.93008,660,15.84812,660,24.43941,660,30.65357,660,39.4332,660,41.41041,660,42.11822
655,12.76201,655,15.23836,655,23.18153,655,29.16961,655,37.95835,655,40.20548,655,41.07932
650,12.54022,650,14.79325,650,22.51686,650,28.51874,650,37.52977,650,40.12309,650,41.1256
645,12.33729,645,14.57119,645,22.42566,645,28.6065,645,38.03993,645,40.94814,645,42.06321
640,12.48592,640,14.83009,640,22.89301,640,29.40453,640,39.44505,640,42.38913,640,43.52135
635,12.93627,635,15.38386,635,23.90664,635,30.85521,635,41.29997,635,44.25103,635,45.38258
630,13.80111,630,16.33857,630,25.44092,630,32.85527,630,43.68949,630,46.25431,630,47.24382
625,14.94995,625,17.56153,625,27.4191,625,35.20531,625,46.11432,625,48.09003,625,48.87852
620,16.22913,620,18.9792,620,29.51053,620,37.6761,620,48.35566,620,49.46711,620,49.89675
615,17.65291,615,20.55863,615,31.72005,615,39.96018,615,49.87791,615,50.00354,615,50.09912
610,18.86354,610,21.77454,610,33.24952,610,41.25445,610,50.14147,610,49.58049,610,49.35894
605,19.39008,605,22.2552,605,33.53151,605,41.22221,605,49.19212,605,48.2781,605,47.99037
600,19.20184,600,21.96378,600,32.80857,600,40.06719,600,47.65166,600,46.84619,600,46.57542
595,18.48563,595,21.19889,595,31.63506,595,38.70262,595,46.34083,595,45.8803,595,45.70989
590,17.86765,590,20.4825,590,30.758,590,37.86744,590,45.90901,590,45.75464,590,45.77067
585,17.35681,585,20.00659,585,30.31846,585,37.657,585,46.25839,585,46.3757,585,46.43475
580,17.09066,580,19.78252,580,30.35171,580,38.03012,580,47.15622,580,47.33838,580,47.37986
575,17.04285,575,19.79201,575,30.72553,575,38.81232,575,48.41179,575,48.49331,575,48.51851
570,17.05898,570,19.94053,570,31.32463,570,39.78138,570,49.86993,570,49.76984,570,49.71782
565,17.11255,565,20.12963,565,32.12852,565,41.07312,565,51.41837,565,51.03323,565,50.86953
560,17.33103,560,20.44883,560,33.08715,560,42.39783,560,53.15367,560,52.33882,560,52.03964
555,17.53914,555,20.9269,555,34.26532,555,43.95344,555,54.98451,555,53.68674,555,53.15237
550,17.95996,550,21.52126,550,35.48902,550,45.72798,550,56.98212,550,54.99767,550,54.3558
545,18.37128,545,22.09316,545,36.90693,545,47.73267,545,59.04908,545,56.38256,545,55.47017
540,18.90084,540,22.87719,540,38.66836,540,49.97377,540,61.28918,540,57.77877,540,56.5537
535,19.56016,535,23.78642,535,40.58827,535,52.50903,535,63.60037,535,59.1628,535,57.57635
530,20.33268,530,24.79783,530,42.72989,530,55.22473,530,66.04378,530,60.41208,530,58.52712
525,21.18773,525,26.05375,525,45.26491,525,58.37101,525,68.60119,525,61.61499,525,59.41352
520,22.25175,520,27.44207,520,48.13428,520,61.82534,520,70.99247,520,62.71606,520,60.17128
515,23.53914,515,29.11691,515,51.4084,515,65.56801,515,73.32062,515,63.64808,515,60.78477
510,24.97832,510,31.06087,510,55.07575,510,69.57723,510,75.48675,510,64.42836,510,61.29101
505,26.77238,505,33.4059,505,59.27556,505,73.87958,505,77.40515,505,65.1036,505,61.70418
500,28.98481,500,36.35983,500,63.9898,500,78.43669,500,78.98628,500,65.65445,500,62.03982
495,31.56578,495,39.86696,495,69.09977,495,82.73232,495,80.11836,495,66.09193,495,62.36137
490,34.67588,490,43.74969,490,74.20213,490,86.57305,490,80.7449,490,66.43868,490,62.60652
485,38.26471,485,48.09481,485,79.02481,485,89.705,485,81.09977,485,66.70765,485,62.85331
480,42.30201,480,52.5637,480,83.39009,480,92.19832,480,81.1317,480,66.94145,480,62.98062
475,46.49557,475,57.01388,475,87.07656,475,94.06839,475,81.10762,475,67.06776,475,63.18453
470,51.05005,470,61.51558,470,90.40397,470,95.5528,470,80.95595,470,67.12856,470,63.28921
465,55.91488,465,66.0508,465,93.26728,465,96.61335,465,80.67954,465,67.10089,465,63.28263
460,61.04716,460,70.54444,460,95.50119,460,97.11542,460,80.15067,460,66.96144,460,63.21096
455,66.14762,455,74.49194,455,96.79853,455,97.00498,455,79.47049,455,66.56627,455,62.83419
450,70.77929,450,77.66677,450,97.1708,450,96.10965,450,78.42635,450,65.93624,450,62.22605
445,74.74847,445,79.92489,445,96.71898,445,94.88433,445,77.25073,445,65.11973,445,61.55014
440,77.83711,440,81.18886,440,95.834,440,93.5108,440,76.07998,440,64.33069,440,60.72544
435,80.03341,435,81.88367,435,94.83543,435,92.22967,435,75.04906,435,63.59711,435,60.07987
430,81.6977,430,82.44406,430,94.28915,430,91.34135,430,74.31101,430,63.08472,430,59.63255
425,83.24361,425,83.16606,425,93.98618,425,90.79182,425,73.83477,425,62.69009,425,59.26277
420,84.73824,420,84.08149,420,94.02067,420,90.44646,420,73.41043,420,62.41664,420,58.96518
415,86.36624,415,85.1034,415,94.22343,415,90.32363,415,72.94829,415,62.16616,415,58.74996
410,87.93951,410,86.3219,410,94.2994,410,89.87932,410,72.60752,410,61.88481,410,58.48609
405,89.5845,405,87.19933,405,94.16874,405,89.30054,405,72.02027,405,61.45363,405,58.10747
400,91.03579,400,87.97401,400,93.58424,400,88.44685,400,71.19366,400,60.81975,400,57.50344
395,91.77662,395,88.01747,395,92.58536,395,87.08736,395,70.15313,395,60.03722,395,56.80594
390,91.5701,390,87.14824,390,90.68208,390,85.23117,390,68.69911,390,58.90004,390,55.81003
385,90.19039,385,85.36187,385,88.17534,385,82.88575,385,66.97716,385,57.56131,385,54.50798
380,87.58565,380,82.52796,380,85.19472,380,80.06095,380,65.02845,380,56.00278,380,53.00892
375,83.9506,375,79.22058,375,81.94111,375,77.25719,375,62.98057,375,54.46071,375,51.54523
370,80.35385,370,75.94516,370,78.81817,370,74.46687,370,61.13251,370,52.9337,370,50.12339
365,76.37286,365,72.65649,365,75.80026,365,71.97877,365,59.3911,365,51.51035,365,48.83101
360,72.88154,360,69.77207,360,73.31558,360,69.89513,360,57.92099,360,50.22239,360,47.64743
355,69.80039,355,67.31449,355,71.34689,355,68.38311,355,56.86549,355,49.32542,355,46.85635
350,67.96615,350,65.82947,350,70.47014,350,67.77209,350,56.48605,350,49.06607,350,46.55485
345,67.50083,345,65.668,345,70.83759,345,68.03775,345,56.8963,345,49.41112,345,46.81861
340,68.08281,340,66.72445,340,71.79902,340,68.90353,340,57.43428,340,49.82615,340,47.12279
335,69.90595,335,68.34504,335,72.99335,335,69.94692,335,58.22572,335,50.45021,335,47.76075
330,71.80111,330,69.58239,330,74.0177,330,70.6042,330,58.37178,330,50.69684,330,48.00991
325,73.76352,325,71.00323,325,75.07733,325,71.4279,325,58.9811,325,50.86012,325,48.49043
320,76.09678,320,72.49387,320,75.55524,320,71.75549,320,59.19066,320,51.17492,320,48.60848
315,78.34075,315,74.08121,315,76.80395,315,72.58322,315,59.64307,315,51.72311,315,48.90834
310,81.32325,310,75.53904,310,77.62384,310,72.81276,310,59.77815,310,52.08984,310,49.02042
305,84.05818,305,77.58618,305,78.79145,305,73.73406,305,60.55624,305,52.59977,305,49.70507
300,87.08519,300,79.65692,300,80.1152,300,74.87446,300,61.08711,300,53.17659,300,50.2511
295,89.27803,295,81.59613,295,81.2463,295,75.60756,295,61.76067,295,53.62187,295,50.90562
290,91.55195,290,83.22723,290,82.34336,290,76.26977,290,62.36588,290,54.12379,290,51.07951
285,93.84302,285,85.08311,285,83.55882,285,77.33495,285,62.77925,285,54.69986,285,51.6168
280,96.87146,280,87.2874,280,84.75486,280,78.23834,280,63.36774,280,55.36783,280,52.11378
275,99.25729,275,88.60016,275,85.08378,275,78.28968,275,63.76926,275,55.57353,275,52.42679
270,101.355,270,89.23338,270,84.94224,270,78.30774,270,63.56794,270,55.42158,270,52.4017
265,102.2817,265,89.57905,265,83.86475,265,77.00676,265,62.84224,265,54.92822,265,51.9257
260,102.593,260,88.78523,260,82.71035,260,75.75636,260,61.93156,260,54.297,260,51.36095
255,102.56,255,87.6715,255,81.10926,255,74.44791,255,60.9368,255,53.58917,255,50.75528
250,102.401,250,85.76899,250,79.08246,250,72.62605,250,59.89353,250,52.67671,250,49.91084

File: MoS2 Ext - Nat Comm.csv
Fraction 1,,Fraction 2,,Fraction 3,,Fraction 4,,Fraction 5,,Fraction 6,,Fraction 7,,Fraction 8,,Fraction 9,
Wavelength (nm),Ext,Wavelength (nm),Ext,Wavelength (nm),Ext,Wavelength (nm),Ext,Wavelength (nm),Ext,Wavelength (nm),Ext,Wavelength (nm),Ext,Wavelength (nm),Ext,Wavelength (nm),Ext
1000,-0.02823,1000,-0.04191,1000,-0.06922,1000,-0.09472,1000,-0.12666,1000,-0.25143,1000,-0.47176,1000,-0.5639,1000,0.27981
991,-0.03082,991,-0.04557,991,-0.07586,991,-0.10378,991,-0.13887,991,-0.27784,991,-0.52542,991,-0.6279,991,0.28842
982,-0.03181,982,-0.0474,982,-0.07929,982,-0.10847,982,-0.14543,982,-0.29309,982,-0.55898,982,-0.66842,982,0.2987
973,-0.0303,973,-0.04592,973,-0.07766,973,-0.10649,973,-0.14272,973,-0.29146,973,-0.56185,973,-0.67317,973,0.31187
964,-0.02641,964,-0.04088,964,-0.07056,964,-0.09721,964,-0.13032,964,-0.27042,964,-0.53164,964,-0.63903,964,0.32756
955,-0.01902,955,-0.03038,955,-0.05332,955,-0.07375,955,-0.09792,955,-0.20732,955,-0.41833,955,-0.50603,955,0.34717
946,-0.01151,946,-0.01944,946,-0.03267,946,-0.04501,946,-0.05747,946,-0.11597,946,-0.22549,946,-0.27487,946,0.36747
937,-0.00453,937,-0.00982,937,-0.01659,937,-0.0232,937,-0.02727,937,-0.05544,937,-0.11077,937,-0.13964,937,0.38783
928,5.86E-04,928,-0.00256,928,-0.00491,928,-0.00729,928,-0.00545,928,-0.01226,928,-0.03273,928,-0.04913,928,0.40683
919,0.00376,919,0.00153,919,0.00196,919,0.0021,919,0.00767,919,0.01358,919,0.0156,919,0.00829,919,0.42445
910,0.00537,910,0.00372,910,0.00549,910,0.00696,910,0.01465,910,0.0273,910,0.04094,910,0.03852,910,0.44174
901,0.00641,901,0.00512,901,0.00798,901,0.01045,901,0.01966,901,0.03682,901,0.0576,901,0.05784,901,0.45918
892,0.00766,892,0.00657,892,0.01047,892,0.01384,892,0.02462,892,0.04646,892,0.07328,892,0.07514,892,0.47723
883,0.0082,883,0.00732,883,0.01224,883,0.0165,883,0.02863,883,0.05469,883,0.08822,883,0.09283,883,0.49568
874,0.0091,874,0.00849,874,0.0142,874,0.01929,874,0.03299,874,0.06377,874,0.10503,874,0.11226,874,0.51493
865,0.01013,865,0.00921,865,0.01585,865,0.02181,865,0.03667,865,0.07174,865,0.11983,865,0.1294,865,0.53493
856,0.0103,856,0.01008,856,0.01755,856,0.0244,856,0.04073,856,0.07976,856,0.1344,856,0.14543,856,0.55565
847,0.01129,847,0.0109,847,0.01933,847,0.02702,847,0.04482,847,0.0884,847,0.1498,847,0.16332,847,0.57734
838,0.0105,838,0.01083,838,0.02009,838,0.02845,838,0.04752,838,0.09521,838,0.16501,838,0.18097,838,0.59906
829,0.01214,829,0.01258,829,0.02333,829,0.03307,829,0.05461,829,0.10894,829,0.18858,829,0.2085,829,0.62279
820,0.01317,820,0.01478,820,0.02698,820,0.03851,820,0.06246,820,0.12425,820,0.21477,820,0.23794,820,0.64794
811,0.01396,811,0.01541,811,0.02911,811,0.04159,811,0.06766,811,0.13465,811,0.23279,811,0.25809,811,0.67329
802,0.01482,802,0.01657,802,0.03138,802,0.04506,802,0.07321,802,0.14575,802,0.25159,802,0.27896,802,0.69995
793,-0.003,793,0.00945,793,0.02807,793,0.03945,793,0.06889,793,0.15544,793,0.26669,793,0.29432,793,0.71747
784,-0.00308,784,0.01018,784,0.02983,784,0.04305,784,0.07455,784,0.16687,784,0.28518,784,0.31478,784,0.74628
775,-0.00221,775,0.01099,775,0.03207,775,0.04689,775,0.08107,775,0.17976,775,0.30556,775,0.33804,775,0.77618
766,-0.00214,766,0.01202,766,0.03499,766,0.05083,766,0.0889,766,0.19498,766,0.33291,766,0.36781,766,0.8077
757,-0.00182,757,0.01394,757,0.03843,757,0.05677,757,0.09779,757,0.21419,757,0.36355,757,0.40234,757,0.84177
748,-7.36E-04,748,0.0151,748,0.04238,748,0.06302,748,0.10842,748,0.23549,748,0.40013,748,0.44276,748,0.87689
739,8.14E-04,739,0.01761,739,0.04774,739,0.0711,739,0.12134,739,0.26139,739,0.44338,739,0.49059,739,0.91472
730,0.00279,730,0.02072,730,0.05482,730,0.08188,730,0.13883,730,0.29586,730,0.50169,730,0.55664,730,0.95513
721,0.00518,721,0.02469,721,0.06384,721,0.09488,721,0.15952,721,0.33732,721,0.57143,721,0.63363,721,0.99873
712,0.00919,712,0.03033,712,0.07518,712,0.11177,712,0.18593,712,0.38918,712,0.65263,712,0.7234,712,1.04662
703,0.01582,703,0.03978,703,0.09209,703,0.13656,703,0.22362,703,0.45836,703,0.75662,703,0.83805,703,1.09878
694,0.02758,694,0.05613,694,0.12075,694,0.17681,694,0.28274,694,0.56236,694,0.89371,694,0.98775,694,1.15301
685,0.05085,685,0.0899,685,0.1768,685,0.25315,685,0.38794,685,0.72704,685,1.06283,685,1.15763,685,1.1975
676,0.09471,676,0.15389,676,0.27528,676,0.37978,676,0.5398,676,0.89965,676,1.14132,676,1.21034,676,1.18896
667,0.14783,667,0.21565,667,0.34002,667,0.4434,667,0.58422,667,0.87603,667,1.04909,667,1.09963,667,1.11698
658,0.16706,658,0.22025,658,0.3253,658,0.4128,658,0.53546,658,0.79583,658,0.9703,658,1.02148,658,1.0703
649,0.15902,649,0.20465,649,0.30467,649,0.38867,649,0.51092,649,0.77808,649,0.9684,649,1.02376,649,1.07571
640,0.1598,640,0.2068,640,0.31169,640,0.40091,640,0.53225,640,0.82066,640,1.02057,640,1.07804,640,1.10663
631,0.17656,631,0.22762,631,0.3432,631,0.44258,631,0.58677,631,0.89593,631,1.08594,631,1.14114,631,1.13573
622,0.20649,622,0.26389,622,0.39346,622,0.50453,622,0.65936,622,0.97371,622,1.13246,622,1.1779,622,1.14968
613,0.24498,613,0.30779,613,0.44716,613,0.56473,613,0.71766,613,1.00958,613,1.13181,613,1.16893,613,1.13861
604,0.26309,604,0.32602,604,0.46129,604,0.57362,604,0.71292,604,0.9739,604,1.08271,604,1.11619,604,1.10152
595,0.25128,595,0.30938,595,0.43616,595,0.54091,595,0.6731,595,0.92592,595,1.04458,595,1.08129,595,1.07682
586,0.23518,586,0.29198,586,0.41821,586,0.52387,586,0.6607,586,0.92826,586,1.05575,586,1.09462,586,1.08689
577,0.22829,577,0.28682,577,0.42052,577,0.53314,577,0.68076,577,0.96687,577,1.0949,577,1.13344,577,1.10902
568,0.22742,568,0.29033,568,0.43511,568,0.55764,568,0.71602,568,1.01733,568,1.13518,568,1.17084,568,1.1306
559,0.23259,559,0.30002,559,0.45867,559,0.59235,559,0.76231,559,1.07616,559,1.17663,559,1.20854,559,1.15175
550,0.2412,550,0.31575,550,0.48932,550,0.63593,550,0.81709,550,1.1376,550,1.21838,550,1.24262,550,1.17291
541,0.25415,541,0.33668,541,0.52851,541,0.68961,541,0.88157,541,1.20376,541,1.25488,541,1.27398,541,1.19487
532,0.27214,532,0.36423,532,0.57743,532,0.75501,532,0.95645,532,1.27051,532,1.28956,532,1.30123,532,1.21699
523,0.29515,523,0.40056,523,0.63869,523,0.83444,523,1.04229,523,1.33301,523,1.31745,523,1.32382,523,1.24017
514,0.32713,514,0.44952,514,0.71616,514,0.93157,514,1.13717,514,1.38697,514,1.34168,514,1.34198,514,1.26348
505,0.37299,505,0.51709,505,0.81316,505,1.04498,505,1.23504,505,1.42546,505,1.36141,505,1.35961,505,1.28704
496,0.43575,496,0.60957,496,0.92626,496,1.16498,496,1.32327,496,1.44487,496,1.37608,496,1.3746,496,1.30751
487,0.52056,487,0.72275,487,1.04414,487,1.27162,487,1.38752,487,1.44826,487,1.38574,487,1.38615,487,1.31988
478,0.62663,478,0.84663,478,1.14886,478,1.34923,478,1.42535,478,1.44311,478,1.39136,478,1.39332,478,1.32396
469,0.74935,469,0.97479,469,1.23965,469,1.40421,469,1.44781,469,1.43813,469,1.39379,469,1.39548,469,1.32274
460,0.88435,460,1.09972,460,1.31148,460,1.43437,460,1.45284,460,1.42403,460,1.38706,460,1.39017,460,1.31259
451,1.01769,451,1.19894,451,1.34877,451,1.43179,451,1.43338,451,1.39612,451,1.3655,451,1.36775,451,1.29013
442,1.12039,442,1.25136,442,1.34786,442,1.40137,442,1.39518,442,1.35856,442,1.33415,442,1.33754,442,1.26094
433,1.18269,433,1.26837,433,1.33259,433,1.36921,433,1.36036,433,1.32559,433,1.30603,433,1.30759,433,1.23671
424,1.22475,424,1.28352,424,1.32761,424,1.35268,424,1.34041,424,1.30693,424,1.2886,424,1.29055,424,1.22272
415,1.2673,415,1.30808,415,1.33354,415,1.34697,415,1.33022,415,1.29354,415,1.27681,415,1.27891,415,1.21248
406,1.31283,406,1.3363,406,1.33821,406,1.33697,406,1.31559,406,1.2762,406,1.26177,406,1.26318,406,1.19907
397,1.34973,397,1.3495,397,1.32664,397,1.31234,397,1.28637,397,1.2474,397,1.23452,397,1.23905,397,1.17741
388,1.34846,388,1.32415,388,1.2848,388,1.26205,388,1.23736,388,1.20235,388,1.19547,388,1.19749,388,1.14442
379,1.29129,379,1.25491,379,1.21179,379,1.18963,379,1.16938,379,1.14349,379,1.14154,379,1.1438,379,1.10131
370,1.19637,370,1.16313,370,1.12887,370,1.11237,370,1.09812,370,1.08272,370,1.08375,370,1.08938,370,1.05794
361,1.09685,361,1.07405,361,1.05199,361,1.04397,361,1.03565,361,1.02954,361,1.03313,361,1.036,361,1.02039
352,1.02303,352,1.00977,352,1.00299,352,1.00372,352,0.99908,352,1.00066,352,1.00739,352,1.01391,352,0.99972
343,1.00164,343,1.0047,343,1.00454,343,1.00508,343,1.00482,343,1.00122,343,1.00078,343,1.00009,343,1.00415
334,1.04562,334,1.04305,334,1.03514,334,1.03051,334,1.0244,334,1.01668,334,1.01128,334,1.01153,334,1.01591
325,1.10225,325,1.0818,325,1.06082,325,1.0499,325,1.03917,325,1.02688,325,1.02334,325,1.02175,325,1.02405
316,1.17606,316,1.12473,316,1.08521,316,1.06442,316,1.04891,316,1.03189,316,1.02587,316,1.02426,316,1.02871
307,1.26642,307,1.17361,307,1.11411,307,1.08133,307,1.06231,307,1.03895,307,1.03127,307,1.02962,307,1.03679
298,1.35744,298,1.2262,298,1.14553,298,1.10458,298,1.0793,298,1.05162,298,1.041,298,1.04053,298,1.05038
289,1.44099,289,1.27871,289,1.17764,289,1.1254,289,1.09625,289,1.06216,289,1.05015,289,1.04697,289,1.06503
280,1.53212,280,1.33572,280,1.21099,280,1.14543,280,1.11296,280,1.07268,280,1.05672,280,1.05177,280,1.07823
271,1.60675,271,1.36735,271,1.2193,271,1.14305,271,1.10632,271,1.06004,271,1.03474,271,1.02375,271,1.07409
262,1.65316,262,1.36376,262,1.19683,262,1.11339,262,1.07621,262,1.02856,262,0.9975,262,0.98478,262,1.05664
253,1.68417,253,1.3355,253,1.15644,253,1.07031,253,1.03523,253,0.99648,253,0.97362,253,0.96225,253,1.0337
250,1.69285,250,1.32189,250,1.1391,250,1.05302,250,1.02046,250,0.98709,250,0.97087,250,0.96207,250,1.02461